{
  "resourceType" : "Bundle",
  "id" : "clinical-document-bundle-BIO-CR-BIO",
  "meta" : {
    "lastUpdated" : "2025-05-07T13:28:17.000+00:00"
  },
  "identifier" : {
    "system" : "urn:oid:1.2.250.1.213.1.1.1.55.12345.12",
    "value" : "2024.01"
  },
  "type" : "document",
  "timestamp" : "2025-05-07T13:28:17.000+00:00",
  "entry" : [{
    "fullUrl" : "https://exemple.com/Composition/clinical-document-composition-BIO-CR-BIO",
    "resource" : {
      "resourceType" : "Composition",
      "id" : "clinical-document-composition-BIO-CR-BIO",
      "meta" : {
        "lastUpdated" : "2024-05-07T13:28:17.000+00:00",
        "profile" : ["https://interop.esante.gouv.fr/ig/document/core/StructureDefinition/fr-composition-document",
        "https://interop.esante.gouv.fr/ig/document/core/StructureDefinition/BIO-CR-BIO/2024.01"]
      },
      "language" : "fr",
      "text" : {
        "status" : "additional",
        "div" : "<div xmlns=\"http://www.w3.org/1999/xhtml\"><a name=\"Composition_clinical-document-composition-BIO-CR-BIO\"> </a><p><b>Compte rendu d'examens biologiques</b></p><p><b>Practitioner</b>: Dr. Marcel CAMPARINI</p><p><b>status</b>: final</p><p><b>patient</b>: DOMINIQUE MARIE-LOUISE PAT-TROIS</p><p><b>author</b>: DR Marcel CAMPARINI / Laboratoire des charmes</p><p><b>Personne à prévenir en cas d'urgence</b>: Sophie NESSI</p><p><b>Personne de confiance</b>: Sophie NESSI</p><p><b>Organisation chargée de la conservation du document</b>: Laboratoire des charmes</p><p><b>Responsable du document</b>: Dr. Marcel CAMPARINI</p><p><b>Biologiste ayant validé des résultats présents sur le compte rendu</b>: Dr. Jean DE SANTS / Dr. Thierry DIAZ</p><p><b>encounter</b>: ambulatoire (hors établissement), 2025-05-03 - 2024-05-07</p><p><b>confidentiality</b>: N</p></div>"
      },
      "extension" : [{
        "url" : "http://hl7.org/fhir/5.0/StructureDefinition/extension-Composition.version",
        "valueString" : "1"
      },
      {
        "extension" : [{
          "url" : "type",
          "valueCodeableConcept" : {
            "coding" : [{
              "system" : "http://terminology.hl7.org/CodeSystem/v3-ParticipationType",
              "code" : "INF",
              "display" : "informant"
            }]
          }
        },
        {
          "url" : "party",
          "valueReference" : {
            "reference" : "Patient/patientExemple"
          }
        }],
        "url" : "http://hl7.org/fhir/uv/fhir-clinical-document/StructureDefinition/informant-extension"
      },
      {
        "extension" : [{
          "url" : "type",
          "valueCodeableConcept" : {
            "coding" : [{
              "system" : "http://terminology.hl7.org/CodeSystem/v3-ParticipationType",
              "code" : "REF",
              "display" : "Référent / Prescripteur"
            }]
          }
        },
        {
          "url" : "time",
          "valuePeriod" : {
            "start" : "2025-06-12T10:00:00+01:00",
            "end" : "2025-06-12T14:00:00+01:00"
          }
        },
        {
          "url" : "party",
          "valueReference" : {
            "reference" : "PractitionerRole/practitioner-role-exemple4"
          }
        }],
        "url" : "http://hl7.org/fhir/uv/fhir-clinical-document/StructureDefinition/ParticipantExtension"
      },
      {
        "url" : "http://hl7.org/fhir/uv/fhir-clinical-document/StructureDefinition/OrderExtension",
        "valueReference" : {
          "reference" : "ServiceRequest/orderExemple"
        }
      }],
      "identifier" : {
        "value" : "1.2.250.1.213.1.1.1.55.2024.5"
      },
      "status" : "final",
      "type" : {
        "coding" : [{
          "system" : "http://loinc.org",
          "code" : "11502-2",
          "display" : "Compte rendu du laboratoire [Recherche] Patient ; Document"
        }]
      },
      "subject" : {
        "reference" : "Patient/patientExemple"
      },
      "encounter" : {
        "reference" : "Encounter/encounterExemple"
      },
      "date" : "2025-06-12T14:00:00+01:00",
      "author" : [{
        "extension" : [{
          "url" : "https://interop.esante.gouv.fr/ig/document/core/StructureDefinition/fr-author-time",
          "valueDateTime" : "2024-01-04T13:45:00+01:00"
        }],
        "reference" : "PractitionerRole/practitioner-role-exemple1",
        "display" : "DR Marcel CAMPARINI"
      }],
      "title" : "Compte rendu d'examens biologiques",
      "confidentiality" : "N",
      "attester" : [{
        "mode" : "legal",
        "time" : "2024-01-04T15:00:00+01:00",
        "party" : {
          "reference" : "PractitionerRole/practitioner-role-exemple1"
        }
      },
      {
        "mode" : "professional",
        "time" : "2024-01-04T14:30:00+01:00",
        "party" : {
          "reference" : "PractitionerRole/practitioner-role-exemple2"
        }
      },
      {
        "mode" : "professional",
        "time" : "2024-01-04T14:30:00+01:00",
        "party" : {
          "reference" : "PractitionerRole/practitioner-role-exemple3"
        }
      }],
      "custodian" : {
        "reference" : "Organization/custodianOrganization",
        "display" : "Laboratoire des charmes"
      },
      "relatesTo" : [{
        "code" : "appends",
        "targetIdentifier" : {
          "type" : {
            "coding" : [{
              "system" : "http://terminology.hl7.org/CodeSystem/v2-0203",
              "code" : "ACSN",
              "display" : "Accession ID"
            }]
          },
          "system" : "urn:oid:1.2.250.1.213.1.1.9",
          "value" : "202411111123"
        }
      }],
      "event" : [{
        "extension" : [{
          "url" : "https://interop.esante.gouv.fr/ig/document/core/StructureDefinition/fr-performer-event",
          "valueReference" : {
            "reference" : "PractitionerRole/practitioner-role-exemple1"
          }
        }],
        "code" : [{
          "coding" : [{
            "system" : "http://loinc.org",
            "code" : "18719-5",
            "display" : "Biochimie"
          }]
        }],
        "period" : {
          "start" : "2024-06-12T08:00:00+01:00",
          "end" : "2024-06-12T09:00:00+01:00"
        }
      },
      {
        "code" : [{
          "coding" : [{
            "system" : "http://loinc.org",
            "code" : "18725-2",
            "display" : "Microbiologie"
          }]
        }]
      }],
      "section" : [{
        "title" : "PDF",
        "entry" : [{
          "reference" : "StructureDefinition/Binary"
        }]
      }]
    }
  },
  {
    "fullUrl" : "https://exemple.com/Patient/patientExemple",
    "resource" : {
      "resourceType" : "Patient",
      "id" : "patientExemple",
      "meta" : {
        "profile" : ["https://interop.esante.gouv.fr/ig/document/core/StructureDefinition/fr-patient-ins-document"]
      },
      "text" : {
        "status" : "generated",
        "div" : "<div xmlns=\"http://www.w3.org/1999/xhtml\"><a name=\"Patient_patientExemple\"> </a><p class=\"res-header-id\"><b>Narratif généré : Patient patientExemple</b></p><a name=\"patientExemple\"> </a><a name=\"hcpatientExemple\"> </a><div style=\"display: inline-block; background-color: #d9e0e7; padding: 6px; margin: 4px; border: 1px solid #8da1b4; border-radius: 5px; line-height: 60%\"><p style=\"margin-bottom: 0px\"/><p style=\"margin-bottom: 0px\">Profil: <a href=\"StructureDefinition-fr-patient-ins-document.html\">Fr Patient INS Document</a></p></div><p style=\"border: 1px #661aff solid; background-color: #e6e6ff; padding: 10px;\">DOMINIQUE MARIE-LOUISE PAT-TROIS  Female, Date de Naissance :1979-03-28 ( NIR définitif\u00a0(use:\u00a0official,\u00a0))</p><hr/><table class=\"grid\"><tr><td style=\"background-color: #f3f5da\" title=\"Statut connu du patient\">Décédé :</td><td colspan=\"3\">false</td></tr><tr><td style=\"background-color: #f3f5da\" title=\"Noms alternatifs (voir plus bas)\">Nom alternatif :</td><td colspan=\"3\">DOMINIQUE MARIE-LOUISE PAT-TROIS (Official)</td></tr><tr><td style=\"background-color: #f3f5da\" title=\"Moyens de contacter le Patient\">Contact Detail</td><td colspan=\"3\"><ul><li>ph: 01 23 24 67 89(Home)</li><li>ph: 01 99 88 77 66(Work)</li><li>ph: 06 80 55 34 33(Mobile)</li></ul></td></tr><tr><td style=\"background-color: #f3f5da\" title=\"Patient contact\">Contact :</td><td colspan=\"3\"><ul><li>Sophie NESSI</li><li>Relations :<span title=\"Codes:{https://mos.esante.gouv.fr/NOS/JDV_J11-RelationPatient-CISIS/FHIR/JDV-J11-RelationPatient-CISIS SIS}\">Soeur</span>, <span title=\"Codes:{https://hl7.fr/ig/fhir/core/ValueSet/fr-core-vs-patient-contact-role ECON}\">Personne à prévenir en cas d'urgence</span></li><li>12 rue des Lilas, 75012 Paris</li></ul></td></tr><tr><td style=\"background-color: #f3f5da\" title=\"Patient contact\">Contact :</td><td colspan=\"3\"><ul><li>Sophie NESSI</li><li>Relations :<span title=\"Codes:{https://mos.esante.gouv.fr/NOS/JDV_J11-RelationPatient-CISIS/FHIR/JDV-J11-RelationPatient-CISIS SIS}\">Soeur</span>, <span title=\"Codes:{https://interop.esante.gouv.fr/ig/document/core/ValueSet/fr-doc-vs-patient-contact-role NOK}\">Personne de confiance</span></li><li>12 rue des Lilas, 75012 Paris</li></ul></td></tr><tr><td style=\"background-color: #f3f5da\" title=\"The registered place of birth of the patient. A sytem may use the address.text if they don't store the birthPlace address in discrete elements.\"><a href=\"http://hl7.org/fhir/extensions/5.2.0/StructureDefinition-patient-birthPlace.html\">Patient Birth Place</a></td><td colspan=\"3\">Ambléon </td></tr><tr><td style=\"background-color: #f3f5da\" title=\"Reliabilility of the patient's identity | Précision sur le degré de fiabilité de l'identité du patient (si provisoire, validé... avec la justification : quelle type de pièce d'identité ?) avec la méthode de collection\">FR Core Patient Ident Reliability Extension:</td><td colspan=\"3\"><ul><li>identityStatus: <a href=\"https://hl7.fr/ig/fhir/core/2.1.0/CodeSystem-fr-core-cs-v2-0445.html#fr-core-cs-v2-0445-VALI\">FR Core CodeSystem v2-0445 VALI</a>: Identité validée</li></ul></td></tr></table></div>"
      },
      "extension" : [{
        "extension" : [{
          "url" : "identityStatus",
          "valueCoding" : {
            "system" : "https://hl7.fr/ig/fhir/core/CodeSystem/fr-core-cs-v2-0445",
            "code" : "VALI"
          }
        }],
        "url" : "https://hl7.fr/ig/fhir/core/StructureDefinition/fr-core-identity-reliability"
      },
      {
        "url" : "http://hl7.org/fhir/StructureDefinition/patient-birthPlace",
        "valueAddress" : {
          "extension" : [{
            "url" : "https://hl7.fr/ig/fhir/core/StructureDefinition/fr-core-address-insee-code",
            "valueCoding" : {
              "system" : "https://mos.esante.gouv.fr/NOS/TRE_R13-Commune/FHIR/TRE-R13-Commune",
              "code" : "01006"
            }
          }],
          "city" : "Ambléon"
        }
      }],
      "identifier" : [{
        "use" : "official",
        "type" : {
          "coding" : [{
            "system" : "https://hl7.fr/ig/fhir/core/CodeSystem/fr-core-cs-v2-0203",
            "code" : "INS-NIR"
          }]
        },
        "system" : "urn:oid:1.2.250.1.213.1.4.8",
        "value" : "123456789012244"
      }],
      "name" : [{
        "extension" : [{
          "url" : "https://hl7.fr/ig/fhir/core/StructureDefinition/fr-core-patient-birth-list-given-name",
          "valueString" : "DOMINIQUE MARIE-LOUISE"
        }],
        "use" : "official",
        "family" : "PAT-TROIS",
        "given" : ["DOMINIQUE MARIE-LOUISE"]
      },
      {
        "use" : "usual",
        "family" : "PAT-TROIS",
        "given" : ["DOMINIQUE MARIE-LOUISE"]
      }],
      "telecom" : [{
        "system" : "phone",
        "value" : "01 23 24 67 89",
        "use" : "home"
      },
      {
        "system" : "phone",
        "value" : "01 99 88 77 66",
        "use" : "work",
        "rank" : 1
      },
      {
        "system" : "phone",
        "value" : "06 80 55 34 33",
        "use" : "mobile",
        "rank" : 2
      }],
      "gender" : "female",
      "birthDate" : "1979-03-28",
      "deceasedBoolean" : false,
      "contact" : [{
        "relationship" : [{
          "coding" : [{
            "system" : "https://mos.esante.gouv.fr/NOS/JDV_J11-RelationPatient-CISIS/FHIR/JDV-J11-RelationPatient-CISIS",
            "code" : "SIS",
            "display" : "Soeur"
          }]
        },
        {
          "coding" : [{
            "system" : "https://hl7.fr/ig/fhir/core/ValueSet/fr-core-vs-patient-contact-role",
            "code" : "ECON",
            "display" : "Personne à prévenir en cas d'urgence"
          }]
        }],
        "name" : {
          "text" : "Sophie NESSI",
          "family" : "NESSI"
        },
        "address" : {
          "text" : "12 rue des Lilas, 75012 Paris"
        }
      },
      {
        "relationship" : [{
          "coding" : [{
            "system" : "https://mos.esante.gouv.fr/NOS/JDV_J11-RelationPatient-CISIS/FHIR/JDV-J11-RelationPatient-CISIS",
            "code" : "SIS",
            "display" : "Soeur"
          }]
        },
        {
          "coding" : [{
            "system" : "https://interop.esante.gouv.fr/ig/document/core/ValueSet/fr-doc-vs-patient-contact-role",
            "code" : "NOK",
            "display" : "Personne de confiance"
          }]
        }],
        "name" : {
          "text" : "Sophie NESSI",
          "family" : "NESSI"
        },
        "address" : {
          "text" : "12 rue des Lilas, 75012 Paris"
        }
      }]
    }
  },
  {
    "fullUrl" : "https://exemple.com/PractitionerRole/practitioner-role-exemple1",
    "resource" : {
      "resourceType" : "PractitionerRole",
      "id" : "practitioner-role-exemple1",
      "meta" : {
        "lastUpdated" : "2013-05-05T16:13:03Z",
        "profile" : ["https://interop.esante.gouv.fr/ig/document/core/StructureDefinition/fr-practitionerRole-document"]
      },
      "text" : {
        "status" : "generated",
        "div" : "<div xmlns=\"http://www.w3.org/1999/xhtml\"><a name=\"PractitionerRole_practitioner-role-exemple1\"> </a><p class=\"res-header-id\"><b>Narratif généré : PractitionerRole practitioner-role-exemple1</b></p><a name=\"practitioner-role-exemple1\"> </a><a name=\"hcpractitioner-role-exemple1\"> </a><div style=\"display: inline-block; background-color: #d9e0e7; padding: 6px; margin: 4px; border: 1px solid #8da1b4; border-radius: 5px; line-height: 60%\"><p style=\"margin-bottom: 0px\">Dernière mise à jour : 2013-05-05 16:13:03+0000</p><p style=\"margin-bottom: 0px\">Profil: <a href=\"StructureDefinition-fr-practitionerRole-document.html\">Fr PractitionerRole Document</a></p></div><p><b>practitioner</b>: <a href=\"Bundle-clinical-document-bundle-BIO-CR-BIO.html#Practitioner_practitioner-exemple1\">Bundle : identifier = urn:oid:1.2.250.1.213.1.1.1.55.12345.12#2024.01; type = document; timestamp = 2025-05-07 13:28:17+0000</a></p><p><b>organization</b>: <a href=\"Bundle-clinical-document-bundle-BIO-CR-BIO.html#Organization_organizationExemple\">Bundle : identifier = urn:oid:1.2.250.1.213.1.1.1.55.12345.12#2024.01; type = document; timestamp = 2025-05-07 13:28:17+0000</a></p><p><b>code</b>: <span title=\"Codes:{http://terminology.hl7.org/CodeSystem/practitioner-role doctor}\">Doctor</span></p></div>"
      },
      "practitioner" : {
        "reference" : "Practitioner/practitioner-exemple1"
      },
      "organization" : {
        "reference" : "Organization/organizationExemple"
      },
      "code" : [{
        "coding" : [{
          "system" : "http://terminology.hl7.org/CodeSystem/practitioner-role",
          "code" : "doctor"
        }]
      }]
    }
  },
  {
    "fullUrl" : "https://exemple.com/Practitioner/practitioner-exemple1",
    "resource" : {
      "resourceType" : "Practitioner",
      "id" : "practitioner-exemple1",
      "meta" : {
        "profile" : ["https://interop.esante.gouv.fr/ig/document/core/StructureDefinition/fr-practitioner-document"]
      },
      "text" : {
        "status" : "generated",
        "div" : "<div xmlns=\"http://www.w3.org/1999/xhtml\"><a name=\"Practitioner_practitioner-exemple1\"> </a><p class=\"res-header-id\"><b>Narratif généré : Praticien practitioner-exemple1</b></p><a name=\"practitioner-exemple1\"> </a><a name=\"hcpractitioner-exemple1\"> </a><div style=\"display: inline-block; background-color: #d9e0e7; padding: 6px; margin: 4px; border: 1px solid #8da1b4; border-radius: 5px; line-height: 60%\"><p style=\"margin-bottom: 0px\"/><p style=\"margin-bottom: 0px\">Profil: <a href=\"StructureDefinition-fr-practitioner-document.html\">Fr Practitioner Document</a></p></div><p><b>identifier</b>: Numéro du professionnel de santé/801234534765</p><p><b>name</b>: Marcel CAMPARINI </p><p><b>telecom</b>: ph: 01 74 58 96 07(Work)</p><p><b>address</b>: 8 Rue Frédéric Bastia, 92100 BOULOGNE-BILLANCOURT</p><h3>Qualifications</h3><table class=\"grid\"><tr><td style=\"display: none\">-</td><td><b>Code</b></td><td><b>Issuer</b></td></tr><tr><td style=\"display: none\">*</td><td><span title=\"Codes:{https://mos.esante.gouv.fr/NOS/TRE_R38-SpecialiteOrdinale/FHIR/TRE-R38-SpecialiteOrdinale SM03}\">Biologie médicale (SM)</span></td><td><a href=\"Bundle-clinical-document-bundle-BIO-CR-BIO.html#Organization_organizationExemple\">Bundle : identifier = urn:oid:1.2.250.1.213.1.1.1.55.12345.12#2024.01; type = document; timestamp = 2025-05-07 13:28:17+0000</a></td></tr></table></div>"
      },
      "identifier" : [{
        "type" : {
          "coding" : [{
            "system" : "https://hl7.fr/ig/fhir/core/CodeSystem/fr-core-cs-v2-0203",
            "code" : "RPPS",
            "display" : "Numéro du professionnel de santé"
          }]
        },
        "system" : "https://rpps.esante.gouv.fr",
        "value" : "801234534765"
      }],
      "name" : [{
        "family" : "CAMPARINI",
        "given" : ["Marcel"],
        "prefix" : ["Dr"]
      }],
      "telecom" : [{
        "system" : "phone",
        "value" : "01 74 58 96 07",
        "use" : "work",
        "rank" : 1
      }],
      "address" : [{
        "text" : "8 Rue Frédéric Bastia, 92100 BOULOGNE-BILLANCOURT"
      }],
      "qualification" : [{
        "code" : {
          "coding" : [{
            "system" : "https://mos.esante.gouv.fr/NOS/TRE_R38-SpecialiteOrdinale/FHIR/TRE-R38-SpecialiteOrdinale",
            "code" : "SM03",
            "display" : "Biologie médicale (SM)"
          }]
        },
        "issuer" : {
          "reference" : "Organization/organizationExemple"
        }
      }]
    }
  },
  {
    "fullUrl" : "https://exemple.com/PractitionerRole/practitioner-role-exemple2",
    "resource" : {
      "resourceType" : "PractitionerRole",
      "id" : "practitioner-role-exemple2",
      "meta" : {
        "lastUpdated" : "2013-05-05T16:13:03Z",
        "profile" : ["https://interop.esante.gouv.fr/ig/document/core/StructureDefinition/fr-practitionerRole-document"]
      },
      "text" : {
        "status" : "generated",
        "div" : "<div xmlns=\"http://www.w3.org/1999/xhtml\"><a name=\"PractitionerRole_practitioner-role-exemple2\"> </a><p class=\"res-header-id\"><b>Narratif généré : PractitionerRole practitioner-role-exemple2</b></p><a name=\"practitioner-role-exemple2\"> </a><a name=\"hcpractitioner-role-exemple2\"> </a><div style=\"display: inline-block; background-color: #d9e0e7; padding: 6px; margin: 4px; border: 1px solid #8da1b4; border-radius: 5px; line-height: 60%\"><p style=\"margin-bottom: 0px\">Dernière mise à jour : 2013-05-05 16:13:03+0000</p><p style=\"margin-bottom: 0px\">Profil: <a href=\"StructureDefinition-fr-practitionerRole-document.html\">Fr PractitionerRole Document</a></p></div><p><b>practitioner</b>: <a href=\"Bundle-clinical-document-bundle-BIO-CR-BIO.html#Practitioner_practitioner-exemple2\">Bundle : identifier = urn:oid:1.2.250.1.213.1.1.1.55.12345.12#2024.01; type = document; timestamp = 2025-05-07 13:28:17+0000</a></p><p><b>organization</b>: <a href=\"Bundle-clinical-document-bundle-BIO-CR-BIO.html#Organization_organizationExemple\">Bundle : identifier = urn:oid:1.2.250.1.213.1.1.1.55.12345.12#2024.01; type = document; timestamp = 2025-05-07 13:28:17+0000</a></p><p><b>code</b>: <span title=\"Codes:{http://terminology.hl7.org/CodeSystem/practitioner-role doctor}\">Doctor</span></p></div>"
      },
      "practitioner" : {
        "reference" : "Practitioner/practitioner-exemple2"
      },
      "organization" : {
        "reference" : "Organization/organizationExemple"
      },
      "code" : [{
        "coding" : [{
          "system" : "http://terminology.hl7.org/CodeSystem/practitioner-role",
          "code" : "doctor"
        }]
      }]
    }
  },
  {
    "fullUrl" : "https://exemple.com/Practitioner/practitioner-exemple2",
    "resource" : {
      "resourceType" : "Practitioner",
      "id" : "practitioner-exemple2",
      "meta" : {
        "profile" : ["https://interop.esante.gouv.fr/ig/document/core/StructureDefinition/fr-practitioner-document"]
      },
      "text" : {
        "status" : "generated",
        "div" : "<div xmlns=\"http://www.w3.org/1999/xhtml\"><a name=\"Practitioner_practitioner-exemple2\"> </a><p class=\"res-header-id\"><b>Narratif généré : Praticien practitioner-exemple2</b></p><a name=\"practitioner-exemple2\"> </a><a name=\"hcpractitioner-exemple2\"> </a><div style=\"display: inline-block; background-color: #d9e0e7; padding: 6px; margin: 4px; border: 1px solid #8da1b4; border-radius: 5px; line-height: 60%\"><p style=\"margin-bottom: 0px\"/><p style=\"margin-bottom: 0px\">Profil: <a href=\"StructureDefinition-fr-practitioner-document.html\">Fr Practitioner Document</a></p></div><p><b>identifier</b>: Numéro du professionnel de santé/801234567898</p><p><b>name</b>: Jean DE SANTS </p><p><b>telecom</b>: ph: 01 74 58 96 07(Work)</p><p><b>address</b>: 8 Rue Frédéric Bastia, 92100 BOULOGNE-BILLANCOURT</p><h3>Qualifications</h3><table class=\"grid\"><tr><td style=\"display: none\">-</td><td><b>Code</b></td><td><b>Issuer</b></td></tr><tr><td style=\"display: none\">*</td><td><span title=\"Codes:{https://mos.esante.gouv.fr/NOS/TRE_R38-SpecialiteOrdinale/FHIR/TRE-R38-SpecialiteOrdinale SM03}\">Biologie médicale (SM)</span></td><td><a href=\"Bundle-clinical-document-bundle-BIO-CR-BIO.html#Organization_organizationExemple\">Bundle : identifier = urn:oid:1.2.250.1.213.1.1.1.55.12345.12#2024.01; type = document; timestamp = 2025-05-07 13:28:17+0000</a></td></tr></table></div>"
      },
      "identifier" : [{
        "type" : {
          "coding" : [{
            "system" : "https://hl7.fr/ig/fhir/core/CodeSystem/fr-core-cs-v2-0203",
            "code" : "RPPS",
            "display" : "Numéro du professionnel de santé"
          }]
        },
        "system" : "https://rpps.esante.gouv.fr",
        "value" : "801234567898"
      }],
      "name" : [{
        "family" : "DE SANTS",
        "given" : ["Jean"],
        "prefix" : ["Dr"]
      }],
      "telecom" : [{
        "system" : "phone",
        "value" : "01 74 58 96 07",
        "use" : "work",
        "rank" : 1
      }],
      "address" : [{
        "text" : "8 Rue Frédéric Bastia, 92100 BOULOGNE-BILLANCOURT"
      }],
      "qualification" : [{
        "code" : {
          "coding" : [{
            "system" : "https://mos.esante.gouv.fr/NOS/TRE_R38-SpecialiteOrdinale/FHIR/TRE-R38-SpecialiteOrdinale",
            "code" : "SM03",
            "display" : "Biologie médicale (SM)"
          }]
        },
        "issuer" : {
          "reference" : "Organization/organizationExemple"
        }
      }]
    }
  },
  {
    "fullUrl" : "https://exemple.com/PractitionerRole/practitioner-role-exemple3",
    "resource" : {
      "resourceType" : "PractitionerRole",
      "id" : "practitioner-role-exemple3",
      "meta" : {
        "lastUpdated" : "2013-05-05T16:13:03Z",
        "profile" : ["https://interop.esante.gouv.fr/ig/document/core/StructureDefinition/fr-practitionerRole-document"]
      },
      "text" : {
        "status" : "generated",
        "div" : "<div xmlns=\"http://www.w3.org/1999/xhtml\"><a name=\"PractitionerRole_practitioner-role-exemple3\"> </a><p class=\"res-header-id\"><b>Narratif généré : PractitionerRole practitioner-role-exemple3</b></p><a name=\"practitioner-role-exemple3\"> </a><a name=\"hcpractitioner-role-exemple3\"> </a><div style=\"display: inline-block; background-color: #d9e0e7; padding: 6px; margin: 4px; border: 1px solid #8da1b4; border-radius: 5px; line-height: 60%\"><p style=\"margin-bottom: 0px\">Dernière mise à jour : 2013-05-05 16:13:03+0000</p><p style=\"margin-bottom: 0px\">Profil: <a href=\"StructureDefinition-fr-practitionerRole-document.html\">Fr PractitionerRole Document</a></p></div><p><b>practitioner</b>: <a href=\"Bundle-clinical-document-bundle-BIO-CR-BIO.html#Practitioner_practitioner-exemple3\">Bundle : identifier = urn:oid:1.2.250.1.213.1.1.1.55.12345.12#2024.01; type = document; timestamp = 2025-05-07 13:28:17+0000</a></p><p><b>organization</b>: <a href=\"Bundle-clinical-document-bundle-BIO-CR-BIO.html#Organization_organizationExemple\">Bundle : identifier = urn:oid:1.2.250.1.213.1.1.1.55.12345.12#2024.01; type = document; timestamp = 2025-05-07 13:28:17+0000</a></p><p><b>code</b>: <span title=\"Codes:{http://terminology.hl7.org/CodeSystem/practitioner-role doctor}\">Doctor</span></p></div>"
      },
      "practitioner" : {
        "reference" : "Practitioner/practitioner-exemple3"
      },
      "organization" : {
        "reference" : "Organization/organizationExemple"
      },
      "code" : [{
        "coding" : [{
          "system" : "http://terminology.hl7.org/CodeSystem/practitioner-role",
          "code" : "doctor"
        }]
      }]
    }
  },
  {
    "fullUrl" : "https://exemple.com/Practitioner/practitioner-exemple3",
    "resource" : {
      "resourceType" : "Practitioner",
      "id" : "practitioner-exemple3",
      "meta" : {
        "profile" : ["https://interop.esante.gouv.fr/ig/document/core/StructureDefinition/fr-practitioner-document"]
      },
      "text" : {
        "status" : "generated",
        "div" : "<div xmlns=\"http://www.w3.org/1999/xhtml\"><a name=\"Practitioner_practitioner-exemple3\"> </a><p class=\"res-header-id\"><b>Narratif généré : Praticien practitioner-exemple3</b></p><a name=\"practitioner-exemple3\"> </a><a name=\"hcpractitioner-exemple3\"> </a><div style=\"display: inline-block; background-color: #d9e0e7; padding: 6px; margin: 4px; border: 1px solid #8da1b4; border-radius: 5px; line-height: 60%\"><p style=\"margin-bottom: 0px\"/><p style=\"margin-bottom: 0px\">Profil: <a href=\"StructureDefinition-fr-practitioner-document.html\">Fr Practitioner Document</a></p></div><p><b>identifier</b>: Numéro du professionnel de santé/801234567898</p><p><b>name</b>: Thierry DIAZ </p><p><b>telecom</b>: ph: 01 74 58 96 07(Work)</p><p><b>address</b>: 8 Rue Frédéric Bastia, 92100 BOULOGNE-BILLANCOURT</p><h3>Qualifications</h3><table class=\"grid\"><tr><td style=\"display: none\">-</td><td><b>Code</b></td><td><b>Issuer</b></td></tr><tr><td style=\"display: none\">*</td><td><span title=\"Codes:{https://mos.esante.gouv.fr/NOS/TRE_R38-SpecialiteOrdinale/FHIR/TRE-R38-SpecialiteOrdinale SM03}\">Biologie médicale (SM)</span></td><td><a href=\"Bundle-clinical-document-bundle-BIO-CR-BIO.html#Organization_organizationExemple\">Bundle : identifier = urn:oid:1.2.250.1.213.1.1.1.55.12345.12#2024.01; type = document; timestamp = 2025-05-07 13:28:17+0000</a></td></tr></table></div>"
      },
      "identifier" : [{
        "type" : {
          "coding" : [{
            "system" : "https://hl7.fr/ig/fhir/core/CodeSystem/fr-core-cs-v2-0203",
            "code" : "RPPS",
            "display" : "Numéro du professionnel de santé"
          }]
        },
        "system" : "https://rpps.esante.gouv.fr",
        "value" : "801234567898"
      }],
      "name" : [{
        "family" : "DIAZ",
        "given" : ["Thierry"],
        "prefix" : ["Dr"]
      }],
      "telecom" : [{
        "system" : "phone",
        "value" : "01 74 58 96 07",
        "use" : "work",
        "rank" : 1
      }],
      "address" : [{
        "text" : "8 Rue Frédéric Bastia, 92100 BOULOGNE-BILLANCOURT"
      }],
      "qualification" : [{
        "code" : {
          "coding" : [{
            "system" : "https://mos.esante.gouv.fr/NOS/TRE_R38-SpecialiteOrdinale/FHIR/TRE-R38-SpecialiteOrdinale",
            "code" : "SM03",
            "display" : "Biologie médicale (SM)"
          }]
        },
        "issuer" : {
          "reference" : "Organization/organizationExemple"
        }
      }]
    }
  },
  {
    "fullUrl" : "https://exemple.com/PractitionerRole/practitioner-role-exemple4",
    "resource" : {
      "resourceType" : "PractitionerRole",
      "id" : "practitioner-role-exemple4",
      "meta" : {
        "lastUpdated" : "2013-05-05T16:13:03Z",
        "profile" : ["https://interop.esante.gouv.fr/ig/document/core/StructureDefinition/fr-practitionerRole-document"]
      },
      "text" : {
        "status" : "generated",
        "div" : "<div xmlns=\"http://www.w3.org/1999/xhtml\"><a name=\"PractitionerRole_practitioner-role-exemple4\"> </a><p class=\"res-header-id\"><b>Narratif généré : PractitionerRole practitioner-role-exemple4</b></p><a name=\"practitioner-role-exemple4\"> </a><a name=\"hcpractitioner-role-exemple4\"> </a><div style=\"display: inline-block; background-color: #d9e0e7; padding: 6px; margin: 4px; border: 1px solid #8da1b4; border-radius: 5px; line-height: 60%\"><p style=\"margin-bottom: 0px\">Dernière mise à jour : 2013-05-05 16:13:03+0000</p><p style=\"margin-bottom: 0px\">Profil: <a href=\"StructureDefinition-fr-practitionerRole-document.html\">Fr PractitionerRole Document</a></p></div><p><b>practitioner</b>: <a href=\"Bundle-clinical-document-bundle-BIO-CR-BIO.html#Practitioner_practitioner-exemple4\">Bundle : identifier = urn:oid:1.2.250.1.213.1.1.1.55.12345.12#2024.01; type = document; timestamp = 2025-05-07 13:28:17+0000</a></p><p><b>organization</b>: <a href=\"Bundle-clinical-document-bundle-BIO-CR-BIO.html#Organization_organizationExemple\">Bundle : identifier = urn:oid:1.2.250.1.213.1.1.1.55.12345.12#2024.01; type = document; timestamp = 2025-05-07 13:28:17+0000</a></p><p><b>code</b>: <span title=\"Codes:{http://terminology.hl7.org/CodeSystem/practitioner-role doctor}\">Doctor</span></p></div>"
      },
      "practitioner" : {
        "reference" : "Practitioner/practitioner-exemple4"
      },
      "organization" : {
        "reference" : "Organization/organizationExemple"
      },
      "code" : [{
        "coding" : [{
          "system" : "http://terminology.hl7.org/CodeSystem/practitioner-role",
          "code" : "doctor"
        }]
      }]
    }
  },
  {
    "fullUrl" : "https://exemple.com/Practitioner/practitioner-exemple4",
    "resource" : {
      "resourceType" : "Practitioner",
      "id" : "practitioner-exemple4",
      "meta" : {
        "profile" : ["https://interop.esante.gouv.fr/ig/document/core/StructureDefinition/fr-practitioner-document"]
      },
      "text" : {
        "status" : "generated",
        "div" : "<div xmlns=\"http://www.w3.org/1999/xhtml\"><a name=\"Practitioner_practitioner-exemple4\"> </a><p class=\"res-header-id\"><b>Narratif généré : Praticien practitioner-exemple4</b></p><a name=\"practitioner-exemple4\"> </a><a name=\"hcpractitioner-exemple4\"> </a><div style=\"display: inline-block; background-color: #d9e0e7; padding: 6px; margin: 4px; border: 1px solid #8da1b4; border-radius: 5px; line-height: 60%\"><p style=\"margin-bottom: 0px\"/><p style=\"margin-bottom: 0px\">Profil: <a href=\"StructureDefinition-fr-practitioner-document.html\">Fr Practitioner Document</a></p></div><p><b>identifier</b>: Numéro du professionnel de santé/801234534765</p><p><b>name</b>: Eva BLUE </p><p><b>telecom</b>: ph: 01 47 15 00 00(Work)</p><h3>Qualifications</h3><table class=\"grid\"><tr><td style=\"display: none\">-</td><td><b>Code</b></td><td><b>Issuer</b></td></tr><tr><td style=\"display: none\">*</td><td><span title=\"Codes:{https://mos.esante.gouv.fr/NOS/TRE_R38-SpecialiteOrdinale/FHIR/TRE-R38-SpecialiteOrdinale SM19}\">Gynécologie médicale (SM)</span></td><td><a href=\"Bundle-clinical-document-bundle-BIO-CR-BIO.html#Organization_organizationExemple2\">Bundle : identifier = urn:oid:1.2.250.1.213.1.1.1.55.12345.12#2024.01; type = document; timestamp = 2025-05-07 13:28:17+0000</a></td></tr></table></div>"
      },
      "identifier" : [{
        "type" : {
          "coding" : [{
            "system" : "https://hl7.fr/ig/fhir/core/CodeSystem/fr-core-cs-v2-0203",
            "code" : "RPPS",
            "display" : "Numéro du professionnel de santé"
          }]
        },
        "system" : "https://rpps.esante.gouv.fr",
        "value" : "801234534765"
      }],
      "name" : [{
        "family" : "BLUE",
        "given" : ["Eva"],
        "prefix" : ["Dr"]
      }],
      "telecom" : [{
        "system" : "phone",
        "value" : "01 47 15 00 00",
        "use" : "work",
        "rank" : 1
      }],
      "qualification" : [{
        "code" : {
          "coding" : [{
            "system" : "https://mos.esante.gouv.fr/NOS/TRE_R38-SpecialiteOrdinale/FHIR/TRE-R38-SpecialiteOrdinale",
            "code" : "SM19",
            "display" : "Gynécologie médicale (SM)"
          }]
        },
        "issuer" : {
          "reference" : "Organization/organizationExemple2"
        }
      }]
    }
  },
  {
    "fullUrl" : "https://exemple.com/PractitionerRole/practitioner-role-exemple5",
    "resource" : {
      "resourceType" : "PractitionerRole",
      "id" : "practitioner-role-exemple5",
      "meta" : {
        "lastUpdated" : "2013-05-05T16:13:03Z",
        "profile" : ["https://interop.esante.gouv.fr/ig/document/core/StructureDefinition/fr-practitionerRole-document"]
      },
      "text" : {
        "status" : "generated",
        "div" : "<div xmlns=\"http://www.w3.org/1999/xhtml\"><a name=\"PractitionerRole_practitioner-role-exemple5\"> </a><p class=\"res-header-id\"><b>Narratif généré : PractitionerRole practitioner-role-exemple5</b></p><a name=\"practitioner-role-exemple5\"> </a><a name=\"hcpractitioner-role-exemple5\"> </a><div style=\"display: inline-block; background-color: #d9e0e7; padding: 6px; margin: 4px; border: 1px solid #8da1b4; border-radius: 5px; line-height: 60%\"><p style=\"margin-bottom: 0px\">Dernière mise à jour : 2013-05-05 16:13:03+0000</p><p style=\"margin-bottom: 0px\">Profil: <a href=\"StructureDefinition-fr-practitionerRole-document.html\">Fr PractitionerRole Document</a></p></div><p><b>practitioner</b>: <a href=\"Bundle-clinical-document-bundle-BIO-CR-BIO.html#Practitioner_practitioner-exemple5\">Bundle : identifier = urn:oid:1.2.250.1.213.1.1.1.55.12345.12#2024.01; type = document; timestamp = 2025-05-07 13:28:17+0000</a></p><p><b>organization</b>: <a href=\"Bundle-clinical-document-bundle-BIO-CR-BIO.html#Organization_organizationExemple\">Bundle : identifier = urn:oid:1.2.250.1.213.1.1.1.55.12345.12#2024.01; type = document; timestamp = 2025-05-07 13:28:17+0000</a></p><p><b>code</b>: <span title=\"Codes:{http://terminology.hl7.org/CodeSystem/practitioner-role nurse}\">Nurse</span></p></div>"
      },
      "practitioner" : {
        "reference" : "Practitioner/practitioner-exemple5"
      },
      "organization" : {
        "reference" : "Organization/organizationExemple"
      },
      "code" : [{
        "coding" : [{
          "system" : "http://terminology.hl7.org/CodeSystem/practitioner-role",
          "code" : "nurse",
          "display" : "Nurse"
        }]
      }]
    }
  },
  {
    "fullUrl" : "https://exemple.com/Practitioner/practitioner-exemple5",
    "resource" : {
      "resourceType" : "Practitioner",
      "id" : "practitioner-exemple5",
      "meta" : {
        "profile" : ["https://interop.esante.gouv.fr/ig/document/core/StructureDefinition/fr-practitioner-document"]
      },
      "text" : {
        "status" : "generated",
        "div" : "<div xmlns=\"http://www.w3.org/1999/xhtml\"><a name=\"Practitioner_practitioner-exemple5\"> </a><p class=\"res-header-id\"><b>Narratif généré : Praticien practitioner-exemple5</b></p><a name=\"practitioner-exemple5\"> </a><a name=\"hcpractitioner-exemple5\"> </a><div style=\"display: inline-block; background-color: #d9e0e7; padding: 6px; margin: 4px; border: 1px solid #8da1b4; border-radius: 5px; line-height: 60%\"><p style=\"margin-bottom: 0px\"/><p style=\"margin-bottom: 0px\">Profil: <a href=\"StructureDefinition-fr-practitioner-document.html\">Fr Practitioner Document</a></p></div><p><b>identifier</b>: Numéro du professionnel de santé/801234534765</p><p><b>name</b>: Roberta BLEEDER </p><p><b>telecom</b>: ph: 01 49 15 45 78(Work)</p><p><b>address</b>: 12 Rue du renard, 92100 BOULOGNE-BILLANCOURT</p><h3>Qualifications</h3><table class=\"grid\"><tr><td style=\"display: none\">-</td><td><b>Code</b></td><td><b>Issuer</b></td></tr><tr><td style=\"display: none\">*</td><td><span title=\"Codes:{https://mos.esante.gouv.fr/NOS/TRE_G15-ProfessionSante/FHIR/TRE-G15-ProfessionSante 60}\">Infirmier</span></td><td><a href=\"Bundle-clinical-document-bundle-BIO-CR-BIO.html#Organization_organizationExemple3\">Bundle : identifier = urn:oid:1.2.250.1.213.1.1.1.55.12345.12#2024.01; type = document; timestamp = 2025-05-07 13:28:17+0000</a></td></tr></table></div>"
      },
      "identifier" : [{
        "type" : {
          "coding" : [{
            "system" : "https://hl7.fr/ig/fhir/core/CodeSystem/fr-core-cs-v2-0203",
            "code" : "RPPS",
            "display" : "Numéro du professionnel de santé"
          }]
        },
        "system" : "https://rpps.esante.gouv.fr",
        "value" : "801234534765"
      }],
      "name" : [{
        "family" : "BLEEDER",
        "given" : ["Roberta"],
        "prefix" : ["Dr"]
      }],
      "telecom" : [{
        "system" : "phone",
        "value" : "01 49 15 45 78",
        "use" : "work",
        "rank" : 1
      }],
      "address" : [{
        "text" : "12 Rue du renard, 92100 BOULOGNE-BILLANCOURT"
      }],
      "qualification" : [{
        "code" : {
          "coding" : [{
            "system" : "https://mos.esante.gouv.fr/NOS/TRE_G15-ProfessionSante/FHIR/TRE-G15-ProfessionSante",
            "code" : "60",
            "display" : "Infirmier"
          }]
        },
        "issuer" : {
          "reference" : "Organization/organizationExemple3"
        }
      }]
    }
  },
  {
    "fullUrl" : "https://exemple.com/Encounter/encounterExemple",
    "resource" : {
      "resourceType" : "Encounter",
      "id" : "encounterExemple",
      "meta" : {
        "lastUpdated" : "2024-05-07T11:28:17.000+00:00",
        "profile" : ["https://interop.esante.gouv.fr/ig/document/core/StructureDefinition/fr-encounter-document"]
      },
      "text" : {
        "status" : "generated",
        "div" : "<div xmlns=\"http://www.w3.org/1999/xhtml\"><a name=\"Encounter_encounterExemple\"> </a><p class=\"res-header-id\"><b>Narratif généré : Venue encounterExemple</b></p><a name=\"encounterExemple\"> </a><a name=\"hcencounterExemple\"> </a><div style=\"display: inline-block; background-color: #d9e0e7; padding: 6px; margin: 4px; border: 1px solid #8da1b4; border-radius: 5px; line-height: 60%\"><p style=\"margin-bottom: 0px\">Dernière mise à jour : 2024-05-07 11:28:17+0000</p><p style=\"margin-bottom: 0px\">Profil: <a href=\"StructureDefinition-fr-encounter-document.html\">Fr Encounter Document</a></p></div><p><b>identifier</b>: Visit Number/801234534765</p><p><b>status</b>: Finished</p><p><b>class</b>: <a href=\"http://terminology.hl7.org/6.5.0/CodeSystem-v3-ActCode.html#v3-ActCode-AMB\">ActCode AMB</a>: ambulatoire (hors établissement)</p><p><b>type</b>: <span title=\"Codes:{https://hl7.fr/ig/fhir/core/ValueSet/fr-core-vs-encounter-type U}\">ambulatoire (hors établissement)</span></p><p><b>subject</b>: <a href=\"Bundle-clinical-document-bundle-BIO-CR-BIO.html#Patient_patientExemple\">DOMINIQUE MARIE-LOUISE</a></p><h3>Participants</h3><table class=\"grid\"><tr><td style=\"display: none\">-</td><td><b>Type</b></td><td><b>Individual</b></td></tr><tr><td style=\"display: none\">*</td><td><span title=\"Codes:{https://mos.esante.gouv.fr/NOS/TRE_A13-HL7ParticipationType/FHIR/TRE-A13-HL7ParticipationType DIS}\">Responsable de la sortie</span></td><td><a href=\"Bundle-clinical-document-bundle-BIO-CR-BIO.html#PractitionerRole_practitioner-role-exemple1\">Bundle : identifier = urn:oid:1.2.250.1.213.1.1.1.55.12345.12#2024.01; type = document; timestamp = 2025-05-07 13:28:17+0000</a></td></tr></table><p><b>period</b>: 2024-05-03 13:28:17+0000 --&gt; 2024-05-07 11:28:17+0000</p><h3>Locations</h3><table class=\"grid\"><tr><td style=\"display: none\">-</td><td><b>Location</b></td><td><b>Status</b></td><td><b>Period</b></td></tr><tr><td style=\"display: none\">*</td><td><a href=\"Bundle-clinical-document-bundle-BIO-CR-BIO.html#Location_locationExemple\">Bundle : identifier = urn:oid:1.2.250.1.213.1.1.1.55.12345.12#2024.01; type = document; timestamp = 2025-05-07 13:28:17+0000</a></td><td>Completed</td><td>2024-05-03 13:28:17+0000 --&gt; 2024-05-07 11:28:17+0000</td></tr></table></div>"
      },
      "identifier" : [{
        "type" : {
          "coding" : [{
            "system" : "https://hl7.fr/ig/fhir/core/ValueSet/fr-core-vs-encounter-identifier-type",
            "code" : "VN",
            "display" : "Visit Number"
          }]
        },
        "system" : "urn:uuid:1.2.250.1.71.4.2.1",
        "value" : "801234534765"
      }],
      "status" : "finished",
      "class" : {
        "system" : "http://terminology.hl7.org/CodeSystem/v3-ActCode",
        "code" : "AMB",
        "display" : "ambulatoire (hors établissement)"
      },
      "type" : [{
        "coding" : [{
          "system" : "https://hl7.fr/ig/fhir/core/ValueSet/fr-core-vs-encounter-type",
          "code" : "U",
          "display" : "Emergency|Caractère d’urgence aigue du problème quel que soit le service d’entrée"
        }],
        "text" : "ambulatoire (hors établissement)"
      }],
      "subject" : {
        "reference" : "Patient/patientExemple",
        "display" : "DOMINIQUE MARIE-LOUISE"
      },
      "participant" : [{
        "type" : [{
          "coding" : [{
            "system" : "https://mos.esante.gouv.fr/NOS/TRE_A13-HL7ParticipationType/FHIR/TRE-A13-HL7ParticipationType",
            "code" : "DIS"
          }]
        }],
        "individual" : {
          "reference" : "PractitionerRole/practitioner-role-exemple1"
        }
      }],
      "period" : {
        "start" : "2024-05-03T13:28:17.000+00:00",
        "end" : "2024-05-07T11:28:17.000+00:00"
      },
      "location" : [{
        "location" : {
          "reference" : "Location/locationExemple"
        },
        "status" : "completed",
        "period" : {
          "start" : "2024-05-03T13:28:17.000+00:00",
          "end" : "2024-05-07T11:28:17.000+00:00"
        }
      }]
    }
  },
  {
    "fullUrl" : "https://exemple.com/ServiceRequest/orderExemple",
    "resource" : {
      "resourceType" : "ServiceRequest",
      "id" : "orderExemple",
      "meta" : {
        "lastUpdated" : "2024-05-07T11:28:17.000+00:00"
      },
      "text" : {
        "status" : "generated",
        "div" : "<div xmlns=\"http://www.w3.org/1999/xhtml\"><a name=\"ServiceRequest_orderExemple\"> </a><p class=\"res-header-id\"><b>Narratif généré : DemandeService orderExemple</b></p><a name=\"orderExemple\"> </a><a name=\"hcorderExemple\"> </a><div style=\"display: inline-block; background-color: #d9e0e7; padding: 6px; margin: 4px; border: 1px solid #8da1b4; border-radius: 5px; line-height: 60%\"><p style=\"margin-bottom: 0px\">Dernière mise à jour : 2024-05-07 11:28:17+0000</p></div><p><b>identifier</b>: <code>urn:oid:1.2.250.1.213.1.1.9</code>/2024123456789</p><p><b>status</b>: Active</p><p><b>intent</b>: Order</p><p><b>code</b>: <span title=\"Codes:\">Discharge to home</span></p><p><b>subject</b>: <a href=\"Bundle-clinical-document-bundle-BIO-CR-BIO.html#Patient_patientExemple\">DOMINIQUE MARIE-LOUISE</a></p></div>"
      },
      "identifier" : [{
        "system" : "urn:oid:1.2.250.1.213.1.1.9",
        "value" : "2024123456789"
      }],
      "status" : "active",
      "intent" : "order",
      "code" : {
        "text" : "Discharge to home"
      },
      "subject" : {
        "reference" : "Patient/patientExemple",
        "display" : "DOMINIQUE MARIE-LOUISE"
      }
    }
  },
  {
    "fullUrl" : "https://exemple.com/Organization/custodianOrganization",
    "resource" : {
      "resourceType" : "Organization",
      "id" : "custodianOrganization",
      "meta" : {
        "profile" : ["https://interop.esante.gouv.fr/ig/document/core/StructureDefinition/fr-organization-document"]
      },
      "text" : {
        "status" : "generated",
        "div" : "<div xmlns=\"http://www.w3.org/1999/xhtml\"><a name=\"Organization_custodianOrganization\"> </a><p class=\"res-header-id\"><b>Narratif généré : Organisation custodianOrganization</b></p><a name=\"custodianOrganization\"> </a><a name=\"hccustodianOrganization\"> </a><div style=\"display: inline-block; background-color: #d9e0e7; padding: 6px; margin: 4px; border: 1px solid #8da1b4; border-radius: 5px; line-height: 60%\"><p style=\"margin-bottom: 0px\"/><p style=\"margin-bottom: 0px\">Profil: <a href=\"StructureDefinition-fr-organization-document.html\">Fr Organization Document</a></p></div><p><b>identifier</b>: Identification nationale de structure définie par l’ANS dans le CI_SIS/1120459876</p><p><b>name</b>: Laboratoire des charmes</p><p><b>telecom</b>: ph: 01 74 58 96 07(Work)</p></div>"
      },
      "identifier" : [{
        "type" : {
          "coding" : [{
            "system" : "https://hl7.fr/ig/fhir/core/CodeSystem/fr-core-cs-v2-0203",
            "code" : "IDNST"
          }]
        },
        "system" : "urn:oid:1.2.250.1.71.4.2.2",
        "value" : "1120459876"
      }],
      "name" : "Laboratoire des charmes",
      "telecom" : [{
        "system" : "phone",
        "value" : "01 74 58 96 07",
        "use" : "work"
      }]
    }
  },
  {
    "fullUrl" : "https://exemple.com/Location/locationExemple",
    "resource" : {
      "resourceType" : "Location",
      "id" : "locationExemple",
      "meta" : {
        "profile" : ["https://interop.esante.gouv.fr/ig/document/core/StructureDefinition/fr-location-document"]
      },
      "text" : {
        "status" : "generated",
        "div" : "<div xmlns=\"http://www.w3.org/1999/xhtml\"><a name=\"Location_locationExemple\"> </a><p class=\"res-header-id\"><b>Narratif généré : Localisation locationExemple</b></p><a name=\"locationExemple\"> </a><a name=\"hclocationExemple\"> </a><div style=\"display: inline-block; background-color: #d9e0e7; padding: 6px; margin: 4px; border: 1px solid #8da1b4; border-radius: 5px; line-height: 60%\"><p style=\"margin-bottom: 0px\"/><p style=\"margin-bottom: 0px\">Profil: <a href=\"StructureDefinition-fr-location-document.html\">Fr Location Document</a></p></div><p><b>identifier</b>: Identification nationale de structure définie par l’ASIP-SANTE dans le CI_SIS/1120459876</p><p><b>name</b>: Laboratoire des charmes</p><p><b>type</b>: <span title=\"Codes:{https://mos.esante.gouv.fr/NOS/JDV_J02-XdsHealthcareFacilityTypeCode-CISIS/FHIR/JDV-J02-XdsHealthcareFacilityTypeCode-CISIS SA25}, {https://mos.esante.gouv.fr/NOS/TRE_R66-CategorieEtablissement/FHIR/TRE-R66-CategorieEtablissement 611}\">Laboratoire de biologie médicale</span></p><p><b>address</b>: 8 Rue Frédéric Bastia, 92100 BOULOGNE-BILLANCOURT</p><p><b>managingOrganization</b>: <a href=\"Bundle-clinical-document-bundle-BIO-CR-BIO.html#Organization_custodianOrganization\">Bundle : identifier = urn:oid:1.2.250.1.213.1.1.1.55.12345.12#2024.01; type = document; timestamp = 2025-05-07 13:28:17+0000</a></p></div>"
      },
      "identifier" : [{
        "type" : {
          "coding" : [{
            "system" : "https://hl7.fr/ig/fhir/core/CodeSystem/fr-core-cs-location-identifier-type",
            "code" : "IDNST",
            "display" : "Identification nationale de structure définie par l’ASIP-SANTE dans le CI_SIS"
          }]
        },
        "system" : "urn:oid:1.2.250.1.71.4.2.2",
        "value" : "1120459876"
      }],
      "name" : "Laboratoire des charmes",
      "type" : [{
        "coding" : [{
          "system" : "https://mos.esante.gouv.fr/NOS/JDV_J02-XdsHealthcareFacilityTypeCode-CISIS/FHIR/JDV-J02-XdsHealthcareFacilityTypeCode-CISIS",
          "code" : "SA25",
          "display" : "Laboratoire de biologie médicale"
        },
        {
          "system" : "https://mos.esante.gouv.fr/NOS/TRE_R66-CategorieEtablissement/FHIR/TRE-R66-CategorieEtablissement",
          "code" : "611",
          "display" : "Laboratoire de Biologie Médicale"
        }]
      }],
      "address" : {
        "text" : "8 Rue Frédéric Bastia, 92100 BOULOGNE-BILLANCOURT"
      },
      "managingOrganization" : {
        "reference" : "Organization/custodianOrganization"
      }
    }
  },
  {
    "fullUrl" : "https://exemple.com/DocumentReference/documentReferenceExample",
    "resource" : {
      "resourceType" : "DocumentReference",
      "id" : "documentReferenceExample",
      "text" : {
        "status" : "generated",
        "div" : "<div xmlns=\"http://www.w3.org/1999/xhtml\"><a name=\"DocumentReference_documentReferenceExample\"> </a><p class=\"res-header-id\"><b>Narratif généré : RéférenceDocument documentReferenceExample</b></p><a name=\"documentReferenceExample\"> </a><a name=\"hcdocumentReferenceExample\"> </a><p><b>status</b>: Current</p><p><b>type</b>: <span title=\"Codes:{http://loinc.org 55107-7}\">Clinical note</span></p><blockquote><p><b>content</b></p><h3>Attachments</h3><table class=\"grid\"><tr><td style=\"display: none\">-</td><td><b>ContentType</b></td><td><b>Url</b></td><td><b>Title</b></td><td><b>Creation</b></td></tr><tr><td style=\"display: none\">*</td><td>application/pdf</td><td>Binary/ExampleBinary</td><td>Résultat PDF</td><td>2025-05-01 10:00:00+0100</td></tr></table></blockquote></div>"
      },
      "status" : "current",
      "type" : {
        "coding" : [{
          "system" : "http://loinc.org",
          "code" : "55107-7",
          "display" : "Clinical note"
        }]
      },
      "content" : [{
        "attachment" : {
          "contentType" : "application/pdf",
          "url" : "Binary/ExampleBinary",
          "title" : "Résultat PDF",
          "creation" : "2025-05-01T10:00:00+01:00"
        }
      }]
    }
  },
  {
    "fullUrl" : "https://exemple.com/Organization/organizationExemple",
    "resource" : {
      "resourceType" : "Organization",
      "id" : "organizationExemple",
      "meta" : {
        "profile" : ["https://interop.esante.gouv.fr/ig/document/core/StructureDefinition/fr-organization-document"]
      },
      "text" : {
        "status" : "generated",
        "div" : "<div xmlns=\"http://www.w3.org/1999/xhtml\"><a name=\"Organization_organizationExemple\"> </a><p class=\"res-header-id\"><b>Narratif généré : Organisation organizationExemple</b></p><a name=\"organizationExemple\"> </a><a name=\"hcorganizationExemple\"> </a><div style=\"display: inline-block; background-color: #d9e0e7; padding: 6px; margin: 4px; border: 1px solid #8da1b4; border-radius: 5px; line-height: 60%\"><p style=\"margin-bottom: 0px\"/><p style=\"margin-bottom: 0px\">Profil: <a href=\"StructureDefinition-fr-organization-document.html\">Fr Organization Document</a></p></div><p><b>identifier</b>: <a href=\"http://terminology.hl7.org/5.5.0/NamingSystem-uri.html\" title=\"As defined by RFC 3986 (http://www.ietf.org/rfc/rfc3986.txt)(with many schemes defined in many RFCs). For OIDs and UUIDs, use the URN form (urn:oid:(note: lowercase) and urn:uuid:). See http://www.ietf.org/rfc/rfc3001.txt and http://www.ietf.org/rfc/rfc4122.txt \r\n\r\nThis oid is used as an identifier II.root to indicate the the extension is an absolute URI (technically, an IRI). Typically, this is used for OIDs and GUIDs. Note that when this OID is used with OIDs and GUIDs, the II.extension should start with urn:oid or urn:uuid: \r\n\r\nNote that this OID is created to aid with interconversion between CDA and FHIR - FHIR uses urn:ietf:rfc:3986 as equivalent to this OID. URIs as identifiers appear more commonly in FHIR.\r\n\r\nThis OID may also be used in CD.codeSystem.\">Uniform Resource Identifier (URI)</a>/urn:uuid:2.16.840.1.113883.19.5</p><p><b>name</b>: Laboratoire des charmes</p></div>"
      },
      "identifier" : [{
        "system" : "urn:ietf:rfc:3986",
        "value" : "urn:uuid:2.16.840.1.113883.19.5"
      }],
      "name" : "Laboratoire des charmes"
    }
  },
  {
    "fullUrl" : "https://exemple.com/Organization/organizationExemple2",
    "resource" : {
      "resourceType" : "Organization",
      "id" : "organizationExemple2",
      "meta" : {
        "profile" : ["https://interop.esante.gouv.fr/ig/document/core/StructureDefinition/fr-organization-document"]
      },
      "text" : {
        "status" : "generated",
        "div" : "<div xmlns=\"http://www.w3.org/1999/xhtml\"><a name=\"Organization_organizationExemple2\"> </a><p class=\"res-header-id\"><b>Narratif généré : Organisation organizationExemple2</b></p><a name=\"organizationExemple2\"> </a><a name=\"hcorganizationExemple2\"> </a><div style=\"display: inline-block; background-color: #d9e0e7; padding: 6px; margin: 4px; border: 1px solid #8da1b4; border-radius: 5px; line-height: 60%\"><p style=\"margin-bottom: 0px\"/><p style=\"margin-bottom: 0px\">Profil: <a href=\"StructureDefinition-fr-organization-document.html\">Fr Organization Document</a></p></div><p><b>identifier</b>: Identification nationale de structure définie par l’ANS dans le CI_SIS/1120459876</p><p><b>name</b>: Cabinet du DR BLUE</p><p><b>telecom</b>: ph: 01 45 37 86 53(Work)</p></div>"
      },
      "identifier" : [{
        "type" : {
          "coding" : [{
            "system" : "https://hl7.fr/ig/fhir/core/CodeSystem/fr-core-cs-v2-0203",
            "code" : "IDNST"
          }]
        },
        "system" : "urn:oid:1.2.250.1.71.4.2.2",
        "value" : "1120459876"
      }],
      "name" : "Cabinet du DR BLUE",
      "telecom" : [{
        "system" : "phone",
        "value" : "01 45 37 86 53",
        "use" : "work"
      }]
    }
  },
  {
    "fullUrl" : "https://exemple.com/Organization/organizationExemple3",
    "resource" : {
      "resourceType" : "Organization",
      "id" : "organizationExemple3",
      "meta" : {
        "profile" : ["https://interop.esante.gouv.fr/ig/document/core/StructureDefinition/fr-organization-document"]
      },
      "text" : {
        "status" : "generated",
        "div" : "<div xmlns=\"http://www.w3.org/1999/xhtml\"><a name=\"Organization_organizationExemple3\"> </a><p class=\"res-header-id\"><b>Narratif généré : Organisation organizationExemple3</b></p><a name=\"organizationExemple3\"> </a><a name=\"hcorganizationExemple3\"> </a><div style=\"display: inline-block; background-color: #d9e0e7; padding: 6px; margin: 4px; border: 1px solid #8da1b4; border-radius: 5px; line-height: 60%\"><p style=\"margin-bottom: 0px\"/><p style=\"margin-bottom: 0px\">Profil: <a href=\"StructureDefinition-fr-organization-document.html\">Fr Organization Document</a></p></div><p><b>identifier</b>: Identification nationale de structure définie par l’ANS dans le CI_SIS/1120459876</p><p><b>name</b>: Cabinet d'infirmières de BB</p><p><b>telecom</b>: ph: 01 38 47 54 39(Work)</p></div>"
      },
      "identifier" : [{
        "type" : {
          "coding" : [{
            "system" : "https://hl7.fr/ig/fhir/core/CodeSystem/fr-core-cs-v2-0203",
            "code" : "IDNST"
          }]
        },
        "system" : "urn:oid:1.2.250.1.71.4.2.2",
        "value" : "1120459876"
      }],
      "name" : "Cabinet d'infirmières de BB",
      "telecom" : [{
        "system" : "phone",
        "value" : "01 38 47 54 39",
        "use" : "work"
      }]
    }
  }]
}